t,w,x,y,z,ax,ay,az
23:39:53.318334,0.99,-0.02,-0.01,-0.17,0.02,-0.02,1.04
23:39:53.329334,0.99,-0.02,-0.01,-0.17,0.01,-0.01,1.04
23:39:53.346334,0.99,-0.01,-0.01,-0.17,0.01,-0.01,1.01
23:39:53.362849,0.99,-0.01,-0.01,-0.17,0.01,-0.01,1.0
23:39:53.365847,0.99,-0.01,-0.02,-0.16,0.01,-0.01,0.99
23:39:53.378847,0.99,-0.01,-0.02,-0.16,0.01,-0.02,0.98
23:39:53.383847,0.99,-0.01,-0.02,-0.16,0.02,-0.02,0.98
23:39:53.395847,0.99,-0.01,-0.02,-0.16,0.02,-0.02,0.98
23:39:53.412855,0.99,-0.01,-0.02,-0.16,0.02,-0.02,0.98
23:39:53.415855,0.99,-0.01,-0.02,-0.16,0.02,-0.02,0.97
23:39:53.429855,0.99,-0.01,-0.02,-0.16,0.03,-0.02,0.97
23:39:53.433855,0.99,-0.01,-0.02,-0.16,0.04,-0.02,0.98
23:39:53.445856,0.99,-0.01,-0.02,-0.16,0.03,-0.02,0.98
23:39:53.462856,0.99,-0.01,-0.02,-0.16,0.03,-0.01,0.99
23:39:53.465856,0.99,-0.01,-0.02,-0.16,0.03,-0.02,0.99
23:39:53.478856,0.99,-0.01,-0.02,-0.16,0.04,-0.02,1.0
23:39:53.483855,0.99,-0.01,-0.02,-0.16,0.04,-0.03,1.0
23:39:53.495855,0.99,-0.02,-0.02,-0.16,0.04,-0.03,1.0
23:39:53.512856,0.99,-0.02,-0.02,-0.16,0.04,-0.03,1.01
23:39:53.515856,0.99,-0.02,-0.02,-0.16,0.03,-0.04,1.01
23:39:53.529864,0.99,-0.02,-0.02,-0.16,0.03,-0.04,1.01
23:39:53.533864,0.99,-0.02,-0.02,-0.16,0.03,-0.03,1.0
23:39:53.545864,0.99,-0.02,-0.02,-0.16,0.03,-0.02,1.0
23:39:53.562864,0.99,-0.02,-0.02,-0.16,0.03,-0.01,1.0
23:39:53.565864,0.99,-0.01,-0.02,-0.16,0.03,-0.0,1.0
23:39:53.579872,0.99,-0.01,-0.02,-0.16,0.03,0.0,1.0
23:39:53.583872,0.99,-0.01,-0.02,-0.16,0.03,0.0,1.0
23:39:53.595872,0.99,-0.01,-0.02,-0.16,0.04,-0.0,1.0
23:39:53.612872,0.99,-0.01,-0.02,-0.15,0.04,-0.01,1.0
23:39:53.615872,0.99,-0.01,-0.02,-0.15,0.05,-0.02,1.0
23:39:53.629872,0.99,-0.01,-0.02,-0.15,0.06,-0.03,1.0
23:39:53.633872,0.99,-0.01,-0.02,-0.15,0.06,-0.04,1.0
23:39:53.645872,0.99,-0.01,-0.02,-0.15,0.07,-0.05,1.0
23:39:53.662882,0.99,-0.01,-0.02,-0.15,0.07,-0.05,1.0
23:39:53.665880,0.99,-0.01,-0.02,-0.15,0.07,-0.04,1.0
23:39:53.678881,0.99,-0.0,-0.02,-0.15,0.07,-0.04,1.0
23:39:53.695880,0.99,-0.0,-0.02,-0.15,0.07,-0.03,1.0
23:39:53.698908,0.99,-0.0,-0.02,-0.15,0.06,-0.02,0.99
23:39:53.712985,0.99,-0.0,-0.02,-0.15,0.06,-0.01,0.98
23:39:53.714986,0.99,-0.0,-0.02,-0.15,0.06,-0.0,0.97
23:39:53.728984,0.99,-0.0,-0.02,-0.15,0.06,-0.0,0.96
23:39:53.745984,0.99,-0.0,-0.02,-0.15,0.06,0.0,0.96
23:39:53.748984,0.99,0.0,-0.02,-0.15,0.06,0.01,0.96
23:39:53.762984,0.99,0.0,-0.02,-0.15,0.05,0.01,0.97
23:39:53.765984,0.99,0.0,-0.02,-0.15,0.05,0.0,0.98
23:39:53.778985,0.99,0.0,-0.02,-0.15,0.05,-0.0,0.99
23:39:53.795984,0.99,0.0,-0.02,-0.15,0.05,-0.0,0.99
23:39:53.798984,0.99,0.0,-0.02,-0.15,0.04,-0.01,0.99
23:39:53.812984,0.99,0.0,-0.02,-0.15,0.04,-0.01,1.0
23:39:53.815984,0.99,0.0,-0.02,-0.15,0.03,-0.01,1.0
23:39:53.828993,0.99,0.0,-0.02,-0.15,0.03,-0.01,1.0
23:39:53.846002,0.99,0.0,-0.02,-0.15,0.03,-0.01,1.0
23:39:53.849002,0.99,0.0,-0.02,-0.16,0.02,-0.02,1.0
23:39:53.863002,0.99,0.0,-0.02,-0.16,0.02,-0.03,1.0
23:39:53.865002,0.99,-0.0,-0.02,-0.16,0.02,-0.04,1.01
23:39:53.879010,0.99,-0.0,-0.01,-0.16,0.02,-0.07,1.02
23:39:53.896010,0.99,-0.0,-0.01,-0.15,0.03,-0.09,1.04
23:39:53.899010,0.99,-0.0,-0.01,-0.15,0.04,-0.11,1.06
23:39:53.913010,0.99,-0.0,-0.01,-0.15,0.05,-0.13,1.07
23:39:53.916010,0.99,-0.0,-0.01,-0.15,0.06,-0.15,1.07
23:39:53.929010,0.99,-0.0,-0.01,-0.15,0.06,-0.17,1.06
23:39:53.946010,0.99,-0.0,-0.01,-0.16,0.06,-0.18,1.04
23:39:53.949010,0.99,-0.0,-0.01,-0.16,0.05,-0.18,1.03
23:39:53.963012,0.99,-0.0,-0.01,-0.16,0.05,-0.19,1.02
23:39:53.965523,0.99,-0.01,-0.01,-0.16,0.04,-0.2,1.01
23:39:53.979523,0.99,-0.01,-0.01,-0.16,0.04,-0.21,1.01
23:39:53.995522,0.99,-0.01,-0.01,-0.16,0.04,-0.22,1.01
23:39:53.998523,0.99,-0.01,-0.01,-0.16,0.04,-0.24,1.0
23:39:54.012523,0.99,-0.01,-0.01,-0.16,0.05,-0.26,1.0
23:39:54.015523,0.99,-0.01,-0.01,-0.16,0.05,-0.28,0.99
23:39:54.029522,0.99,-0.01,-0.01,-0.17,0.05,-0.3,0.98
23:39:54.045523,0.99,-0.01,-0.01,-0.17,0.05,-0.29,0.98
23:39:54.048523,0.99,-0.01,-0.01,-0.17,0.04,-0.28,0.98
23:39:54.062523,0.98,-0.01,-0.0,-0.17,0.04,-0.24,0.99
23:39:54.065523,0.98,-0.01,-0.0,-0.17,0.04,-0.18,0.99
23:39:54.079523,0.98,-0.01,-0.0,-0.18,0.05,-0.13,0.99
23:39:54.095523,0.98,-0.01,-0.0,-0.18,0.05,-0.12,0.99
23:39:54.098523,0.98,-0.01,-0.0,-0.18,0.05,-0.13,0.99
23:39:54.112523,0.98,-0.01,-0.0,-0.18,0.04,-0.14,1.0
23:39:54.115523,0.98,-0.02,-0.0,-0.18,0.02,-0.14,1.02
23:39:54.129531,0.98,-0.02,-0.0,-0.19,0.01,-0.14,1.03
23:39:54.145531,0.98,-0.02,-0.0,-0.19,0.01,-0.13,1.04
23:39:54.148531,0.98,-0.02,-0.0,-0.19,0.01,-0.13,1.03
23:39:54.162531,0.98,-0.03,-0.0,-0.19,0.01,-0.14,1.0
23:39:54.165531,0.98,-0.03,-0.0,-0.19,0.01,-0.14,0.99
23:39:54.179531,0.98,-0.03,0.0,-0.2,-0.01,-0.14,0.99
23:39:54.195531,0.98,-0.03,0.0,-0.2,-0.04,-0.15,1.01
23:39:54.198531,0.98,-0.03,0.0,-0.2,-0.05,-0.14,1.02
23:39:54.213357,0.98,-0.03,0.0,-0.2,-0.05,-0.11,1.02
23:39:54.215357,0.98,-0.04,-0.0,-0.21,-0.05,-0.07,1.02
23:39:54.229357,0.98,-0.04,-0.0,-0.21,-0.05,-0.05,1.01
23:39:54.246357,0.98,-0.04,-0.0,-0.21,-0.05,-0.06,1.0
23:39:54.248357,0.98,-0.04,-0.0,-0.21,-0.04,-0.07,1.0
23:39:54.262357,0.98,-0.04,-0.0,-0.22,-0.03,-0.09,0.99
23:39:54.265365,0.97,-0.04,-0.0,-0.22,-0.02,-0.11,1.0
23:39:54.279365,0.97,-0.04,-0.0,-0.22,-0.01,-0.13,1.0
23:39:54.296365,0.97,-0.04,0.0,-0.23,-0.01,-0.14,1.0
23:39:54.299365,0.97,-0.04,0.0,-0.23,-0.01,-0.16,1.0
23:39:54.313374,0.97,-0.04,0.0,-0.23,-0.04,-0.15,0.99
23:39:54.315374,0.97,-0.04,0.0,-0.24,-0.06,-0.13,0.98
23:39:54.329374,0.97,-0.04,0.0,-0.24,-0.07,-0.11,0.98
23:39:54.346374,0.97,-0.04,0.0,-0.24,-0.07,-0.08,0.99
23:39:54.350374,0.97,-0.04,0.0,-0.25,-0.08,-0.03,0.99
23:39:54.354374,0.97,-0.03,-0.0,-0.25,-0.08,0.02,0.98
23:39:54.379382,0.97,-0.03,-0.0,-0.25,-0.09,0.07,0.97
23:39:54.382383,0.97,-0.03,-0.0,-0.25,-0.08,0.09,0.97
23:39:54.385382,0.97,-0.03,-0.0,-0.25,-0.07,0.11,0.96
23:39:54.396382,0.97,-0.03,-0.0,-0.26,-0.05,0.11,0.97
23:39:54.412383,0.97,-0.02,0.0,-0.26,-0.03,0.11,0.99
23:39:54.415382,0.96,-0.02,0.0,-0.26,-0.03,0.1,1.0
23:39:54.429382,0.96,-0.02,0.0,-0.26,-0.03,0.1,1.01
23:39:54.446382,0.96,-0.02,0.0,-0.27,-0.03,0.09,1.02
23:39:54.448382,0.96,-0.02,-0.0,-0.27,-0.04,0.09,1.01
23:39:54.462382,0.96,-0.02,-0.0,-0.27,-0.04,0.09,1.01
23:39:54.465382,0.96,-0.02,-0.0,-0.27,-0.02,0.08,1.02
23:39:54.479382,0.96,-0.02,0.0,-0.27,-0.01,0.1,1.03
23:39:54.495382,0.96,-0.02,0.0,-0.28,0.01,0.11,1.05
23:39:54.498382,0.96,-0.02,0.01,-0.28,0.01,0.11,1.08
23:39:54.512382,0.96,-0.02,0.01,-0.28,-0.01,0.12,1.11
23:39:54.515382,0.96,-0.02,0.01,-0.28,-0.03,0.14,1.13
23:39:54.529382,0.96,-0.02,0.01,-0.28,-0.02,0.16,1.13
23:39:54.545382,0.96,-0.01,0.0,-0.28,-0.02,0.19,1.11
23:39:54.548382,0.96,-0.01,-0.0,-0.28,-0.02,0.23,1.07
23:39:54.562382,0.96,-0.01,-0.01,-0.29,-0.01,0.29,1.03
23:39:54.565895,0.96,-0.01,-0.01,-0.29,0.01,0.37,0.98
23:39:54.580896,0.96,-0.01,-0.02,-0.29,0.04,0.43,0.95
23:39:54.584895,0.96,-0.01,-0.02,-0.29,0.08,0.48,0.96
23:39:54.595896,0.96,-0.01,-0.01,-0.29,0.1,0.51,0.99
23:39:54.612895,0.96,-0.01,-0.01,-0.29,0.08,0.53,1.02
23:39:54.614896,0.96,-0.01,-0.01,-0.29,0.05,0.55,1.05
23:39:54.628896,0.96,-0.01,-0.01,-0.29,0.01,0.56,1.06
23:39:54.645895,0.96,-0.01,-0.01,-0.29,-0.04,0.57,1.04
23:39:54.648896,0.96,-0.01,-0.01,-0.29,-0.09,0.56,1.0
23:39:54.662896,0.96,-0.0,-0.01,-0.29,-0.13,0.56,0.95
23:39:54.664896,0.96,-0.0,-0.01,-0.29,-0.15,0.55,0.93
23:39:54.678896,0.96,-0.0,-0.01,-0.29,-0.15,0.53,0.92
23:39:54.695896,0.96,-0.0,-0.01,-0.28,-0.13,0.53,0.92
23:39:54.698896,0.96,-0.01,-0.01,-0.28,-0.11,0.53,0.93
23:39:54.713144,0.96,-0.01,-0.01,-0.27,-0.09,0.54,0.93
23:39:54.715143,0.96,-0.01,-0.01,-0.27,-0.08,0.55,0.93
23:39:54.729150,0.96,-0.01,-0.02,-0.27,-0.08,0.56,0.93
23:39:54.746150,0.96,-0.01,-0.02,-0.26,-0.07,0.57,0.93
23:39:54.748151,0.97,-0.01,-0.02,-0.26,-0.08,0.59,0.93
23:39:54.762151,0.97,-0.01,-0.02,-0.26,-0.1,0.59,0.92
23:39:54.765151,0.97,-0.01,-0.02,-0.25,-0.12,0.58,0.91
23:39:54.779150,0.97,-0.0,-0.02,-0.25,-0.12,0.55,0.9
23:39:54.796151,0.97,-0.0,-0.02,-0.24,-0.11,0.51,0.91
23:39:54.799151,0.97,-0.01,-0.02,-0.24,-0.1,0.46,0.92
23:39:54.813151,0.97,-0.01,-0.02,-0.23,-0.09,0.4,0.93
23:39:54.815664,0.97,-0.01,-0.02,-0.23,-0.09,0.34,0.96
23:39:54.829663,0.98,-0.01,-0.01,-0.22,-0.1,0.29,0.98
23:39:54.845663,0.98,-0.01,-0.01,-0.22,-0.11,0.24,0.99
23:39:54.848663,0.98,-0.01,-0.01,-0.21,-0.11,0.19,0.99
23:39:54.862663,0.98,-0.01,-0.02,-0.21,-0.11,0.15,0.99
23:39:54.865663,0.98,-0.01,-0.02,-0.2,-0.1,0.11,0.99
23:39:54.879663,0.98,-0.01,-0.01,-0.2,-0.09,0.08,1.03
23:39:54.895663,0.98,-0.01,-0.01,-0.19,-0.08,0.06,1.08
23:39:54.898663,0.98,-0.01,-0.01,-0.19,-0.08,0.04,1.13
23:39:54.912663,0.98,-0.01,-0.01,-0.18,-0.08,0.02,1.17
23:39:54.915663,0.98,-0.01,-0.01,-0.18,-0.09,-0.01,1.18
23:39:54.929664,0.98,-0.01,-0.01,-0.17,-0.09,-0.05,1.18
23:39:54.945663,0.99,-0.01,-0.01,-0.17,-0.1,-0.09,1.16
23:39:54.948663,0.99,-0.0,-0.01,-0.17,-0.11,-0.13,1.13
23:39:54.962663,0.99,-0.0,-0.01,-0.17,-0.1,-0.19,1.11
23:39:54.965663,0.99,0.0,-0.01,-0.16,-0.08,-0.23,1.1
23:39:54.979663,0.99,0.01,-0.01,-0.16,-0.07,-0.26,1.12
23:39:54.995663,0.99,0.01,-0.0,-0.16,-0.07,-0.28,1.13
23:39:54.998663,0.99,0.01,-0.0,-0.16,-0.07,-0.29,1.13
23:39:55.012663,0.99,0.02,-0.0,-0.16,-0.07,-0.31,1.11
23:39:55.015663,0.99,0.02,0.0,-0.16,-0.07,-0.32,1.08
23:39:55.029663,0.99,0.03,0.0,-0.16,-0.07,-0.33,1.06
23:39:55.045663,0.99,0.03,0.0,-0.16,-0.08,-0.33,1.04
23:39:55.048663,0.99,0.03,0.0,-0.15,-0.13,-0.34,1.03
23:39:55.062666,0.99,0.04,-0.0,-0.15,-0.14,-0.36,1.04
23:39:55.065688,0.99,0.04,-0.01,-0.15,-0.11,-0.36,1.05
23:39:55.079688,0.99,0.05,-0.02,-0.15,-0.07,-0.35,1.06
23:39:55.095688,0.99,0.05,-0.03,-0.15,-0.02,-0.35,1.06
23:39:55.098688,0.99,0.05,-0.03,-0.15,0.01,-0.36,1.03
23:39:55.112697,0.99,0.05,-0.03,-0.15,0.03,-0.38,1.02
23:39:55.115697,0.99,0.05,-0.03,-0.14,0.03,-0.41,1.01
23:39:55.129697,0.99,0.05,-0.03,-0.14,0.04,-0.44,1.0
23:39:55.145697,0.99,0.05,-0.03,-0.14,0.05,-0.46,0.99
23:39:55.148697,0.99,0.05,-0.03,-0.14,0.06,-0.48,0.99
23:39:55.162697,0.99,0.04,-0.03,-0.14,0.07,-0.49,0.99
23:39:55.165696,0.99,0.04,-0.03,-0.13,0.08,-0.5,0.98
23:39:55.179697,0.99,0.04,-0.02,-0.13,0.08,-0.5,0.97
23:39:55.195697,0.99,0.03,-0.02,-0.13,0.08,-0.5,0.97
23:39:55.198697,0.99,0.03,-0.01,-0.12,0.06,-0.49,0.98
23:39:55.212697,0.99,0.03,-0.01,-0.12,0.05,-0.48,0.98
23:39:55.215697,0.99,0.02,-0.01,-0.12,0.04,-0.46,0.98
23:39:55.229338,0.99,0.02,-0.01,-0.11,0.04,-0.45,0.98
23:39:55.245338,0.99,0.02,-0.01,-0.11,0.05,-0.42,0.99
23:39:55.248338,0.99,0.02,-0.02,-0.11,0.06,-0.39,1.01
23:39:55.262338,0.99,0.01,-0.02,-0.11,0.07,-0.38,1.0
23:39:55.265338,0.99,0.01,-0.02,-0.11,0.08,-0.38,0.99
23:39:55.279338,0.99,0.01,-0.02,-0.1,0.09,-0.39,0.98
23:39:55.295338,0.99,0.01,-0.02,-0.1,0.1,-0.41,0.97
23:39:55.299338,0.99,0.0,-0.02,-0.1,0.11,-0.43,0.97
23:39:55.312338,0.99,0.0,-0.02,-0.1,0.11,-0.44,0.97
23:39:55.315346,0.99,0.0,-0.02,-0.1,0.12,-0.44,0.97
23:39:55.329346,1.0,-0.0,-0.02,-0.1,0.12,-0.44,0.97
23:39:55.346346,1.0,-0.0,-0.02,-0.1,0.13,-0.43,0.96
23:39:55.348346,1.0,-0.01,-0.02,-0.09,0.13,-0.43,0.95
23:39:55.362346,1.0,-0.01,-0.02,-0.09,0.14,-0.42,0.95
23:39:55.365346,1.0,-0.01,-0.02,-0.09,0.14,-0.41,0.96
23:39:55.379346,1.0,-0.01,-0.02,-0.09,0.13,-0.4,0.97
23:39:55.396346,1.0,-0.02,-0.02,-0.09,0.13,-0.4,0.97
23:39:55.398346,1.0,-0.02,-0.02,-0.09,0.13,-0.39,0.97
23:39:55.412347,1.0,-0.02,-0.02,-0.09,0.12,-0.39,0.97
23:39:55.415346,1.0,-0.02,-0.02,-0.09,0.12,-0.38,0.96
23:39:55.429346,1.0,-0.03,-0.02,-0.09,0.11,-0.36,0.97
23:39:55.445346,0.99,-0.03,-0.01,-0.09,0.1,-0.35,0.99
23:39:55.448346,0.99,-0.03,-0.01,-0.1,0.09,-0.33,1.01
23:39:55.462346,0.99,-0.03,-0.01,-0.1,0.08,-0.31,1.03
23:39:55.465346,0.99,-0.04,-0.01,-0.1,0.07,-0.29,1.05
23:39:55.479346,0.99,-0.04,-0.01,-0.1,0.06,-0.28,1.07
23:39:55.496346,0.99,-0.04,-0.01,-0.1,0.05,-0.27,1.08
23:39:55.498346,0.99,-0.05,-0.02,-0.1,0.05,-0.28,1.08
23:39:55.512346,0.99,-0.05,-0.02,-0.11,0.05,-0.3,1.06
23:39:55.515356,0.99,-0.05,-0.01,-0.11,0.05,-0.32,1.04
23:39:55.529355,0.99,-0.06,-0.01,-0.11,0.03,-0.33,1.04
23:39:55.546355,0.99,-0.06,-0.01,-0.11,0.01,-0.34,1.05
23:39:55.548355,0.99,-0.06,-0.0,-0.12,-0.01,-0.33,1.07
23:39:55.562355,0.99,-0.06,-0.0,-0.12,-0.04,-0.32,1.07
23:39:55.565363,0.99,-0.06,-0.0,-0.12,-0.05,-0.29,1.07
23:39:55.579363,0.99,-0.07,-0.0,-0.12,-0.06,-0.26,1.07
23:39:55.596363,0.99,-0.07,-0.0,-0.13,-0.06,-0.22,1.07
23:39:55.598363,0.99,-0.07,-0.0,-0.13,-0.05,-0.17,1.05
23:39:55.612381,0.99,-0.07,-0.0,-0.13,-0.03,-0.12,1.03
23:39:55.615371,0.99,-0.07,-0.0,-0.13,-0.03,-0.04,1.02
23:39:55.629371,0.99,-0.07,0.0,-0.14,-0.04,0.04,1.02
23:39:55.645371,0.99,-0.07,0.01,-0.14,-0.04,0.09,1.02
23:39:55.648372,0.99,-0.06,0.01,-0.15,-0.04,0.13,1.04
23:39:55.662371,0.99,-0.06,0.01,-0.15,-0.04,0.19,1.07
23:39:55.665371,0.99,-0.06,0.01,-0.16,-0.05,0.25,1.09
23:39:55.679371,0.99,-0.06,0.01,-0.16,-0.05,0.3,1.09
23:39:55.696372,0.98,-0.06,0.01,-0.16,-0.05,0.33,1.08
23:39:55.698371,0.98,-0.06,0.01,-0.17,-0.05,0.34,1.06
23:39:55.712884,0.98,-0.05,0.01,-0.17,-0.04,0.34,1.03
23:39:55.715884,0.98,-0.05,0.01,-0.17,-0.04,0.33,1.01
23:39:55.729583,0.98,-0.05,0.01,-0.18,-0.05,0.33,1.0
23:39:55.745582,0.98,-0.05,0.01,-0.18,-0.07,0.34,1.0
23:39:55.748582,0.98,-0.05,0.01,-0.18,-0.09,0.36,1.0
23:39:55.762582,0.98,-0.04,0.01,-0.18,-0.1,0.38,0.99
23:39:55.765582,0.98,-0.04,0.0,-0.19,-0.11,0.39,0.97
23:39:55.779582,0.98,-0.04,0.0,-0.19,-0.11,0.39,0.95
23:39:55.795582,0.98,-0.04,0.0,-0.19,-0.11,0.39,0.92
23:39:55.798582,0.98,-0.04,0.0,-0.19,-0.11,0.39,0.91
23:39:55.812582,0.98,-0.03,0.0,-0.2,-0.11,0.37,0.91
23:39:55.815591,0.98,-0.03,0.01,-0.2,-0.1,0.35,0.92
23:39:55.829590,0.98,-0.03,0.01,-0.2,-0.1,0.33,0.93
23:39:55.845590,0.98,-0.03,0.01,-0.2,-0.1,0.3,0.95
23:39:55.848590,0.98,-0.03,0.01,-0.2,-0.08,0.26,0.97
23:39:55.862590,0.98,-0.03,0.01,-0.2,-0.07,0.22,0.98
23:39:55.865590,0.98,-0.03,0.01,-0.2,-0.05,0.19,0.98
23:39:55.879590,0.98,-0.03,0.01,-0.2,-0.03,0.16,0.97
23:39:55.895590,0.98,-0.03,0.01,-0.2,-0.02,0.14,0.95
23:39:55.898591,0.98,-0.03,0.01,-0.2,-0.01,0.11,0.95
23:39:55.912590,0.98,-0.03,0.01,-0.2,-0.01,0.09,0.95
23:39:55.915590,0.98,-0.03,0.01,-0.21,0.0,0.07,0.95
23:39:55.929590,0.98,-0.03,0.01,-0.21,0.01,0.06,0.96
23:39:55.945590,0.98,-0.03,0.02,-0.21,0.01,0.04,0.98
23:39:55.948590,0.98,-0.03,0.02,-0.21,0.0,0.03,0.99
23:39:55.962590,0.98,-0.03,0.02,-0.21,-0.01,0.01,1.0
23:39:55.965590,0.98,-0.04,0.02,-0.21,-0.02,-0.01,1.02
23:39:55.979590,0.98,-0.04,0.02,-0.21,-0.02,-0.02,1.03
23:39:55.995590,0.98,-0.04,0.02,-0.21,-0.02,-0.03,1.04
23:39:55.998590,0.98,-0.04,0.02,-0.21,-0.01,-0.04,1.04
23:39:56.012590,0.98,-0.04,0.02,-0.21,-0.0,-0.04,1.06
23:39:56.015590,0.98,-0.04,0.02,-0.21,0.0,-0.05,1.07
23:39:56.029590,0.98,-0.04,0.02,-0.2,0.0,-0.05,1.08
23:39:56.045590,0.98,-0.04,0.02,-0.2,-0.0,-0.04,1.09
23:39:56.048590,0.98,-0.04,0.02,-0.2,-0.01,-0.04,1.09
23:39:56.062590,0.98,-0.04,0.02,-0.2,-0.02,-0.05,1.08
23:39:56.065624,0.98,-0.04,0.02,-0.2,-0.04,-0.05,1.07
23:39:56.079616,0.98,-0.04,0.02,-0.2,-0.06,-0.05,1.05
23:39:56.095616,0.98,-0.04,0.02,-0.2,-0.07,-0.06,1.04
23:39:56.098616,0.98,-0.04,0.02,-0.2,-0.07,-0.08,1.04
23:39:56.112616,0.98,-0.03,0.02,-0.2,-0.06,-0.09,1.05
23:39:56.115624,0.98,-0.03,0.02,-0.2,-0.06,-0.1,1.06
23:39:56.129624,0.98,-0.03,0.03,-0.19,-0.05,-0.1,1.07
23:39:56.145624,0.98,-0.03,0.03,-0.19,-0.06,-0.09,1.06
23:39:56.148624,0.98,-0.03,0.03,-0.19,-0.08,-0.07,1.04
23:39:56.162624,0.98,-0.03,0.03,-0.19,-0.11,-0.06,1.02
23:39:56.165624,0.98,-0.02,0.04,-0.2,-0.13,-0.05,1.0
23:39:56.179624,0.98,-0.02,0.04,-0.2,-0.14,-0.05,0.99
23:39:56.195624,0.98,-0.02,0.04,-0.2,-0.13,-0.06,0.99
23:39:56.198624,0.98,-0.02,0.04,-0.2,-0.1,-0.07,0.97
23:39:56.213138,0.98,-0.02,0.04,-0.2,-0.05,-0.09,0.95
23:39:56.216138,0.98,-0.01,0.03,-0.2,0.01,-0.12,0.93
23:39:56.229138,0.98,-0.01,0.03,-0.2,0.09,-0.14,0.91
23:39:56.246313,0.98,-0.01,0.02,-0.21,0.18,-0.15,0.88
23:39:56.248824,0.98,-0.01,0.02,-0.21,0.25,-0.13,0.84
23:39:56.262824,0.98,-0.01,0.01,-0.21,0.32,-0.11,0.8
23:39:56.266824,0.98,-0.01,0.01,-0.22,0.4,-0.08,0.78
23:39:56.278824,0.98,-0.01,0.0,-0.22,0.45,-0.07,0.79
23:39:56.295824,0.98,-0.01,0.0,-0.22,0.49,-0.07,0.84
23:39:56.298824,0.98,-0.01,0.01,-0.22,0.5,-0.08,0.91
23:39:56.312824,0.98,-0.01,0.01,-0.22,0.49,-0.1,1.0
23:39:56.316824,0.98,-0.02,0.02,-0.22,0.47,-0.12,1.07
23:39:56.328832,0.98,-0.02,0.02,-0.21,0.44,-0.13,1.12
23:39:56.345832,0.98,-0.02,0.02,-0.21,0.42,-0.12,1.17
23:39:56.348832,0.98,-0.02,0.02,-0.21,0.39,-0.1,1.2
23:39:56.362832,0.98,-0.02,0.01,-0.21,0.37,-0.07,1.2
23:39:56.366840,0.98,-0.02,0.01,-0.21,0.34,-0.03,1.18
23:39:56.379840,0.98,-0.02,0.0,-0.21,0.31,0.0,1.14
23:39:56.395840,0.98,-0.02,-0.0,-0.21,0.28,0.03,1.08
23:39:56.398840,0.98,-0.02,-0.01,-0.21,0.26,0.04,1.03
23:39:56.412840,0.98,-0.02,-0.01,-0.21,0.25,0.04,0.99
23:39:56.416840,0.98,-0.02,-0.01,-0.21,0.23,0.03,0.97
23:39:56.428840,0.98,-0.02,-0.01,-0.21,0.21,0.01,0.97
23:39:56.445840,0.98,-0.02,-0.01,-0.21,0.18,-0.02,0.98
23:39:56.448840,0.98,-0.03,-0.01,-0.22,0.15,-0.03,0.99
23:39:56.462840,0.98,-0.03,-0.01,-0.22,0.12,-0.04,1.0
23:39:56.466840,0.98,-0.03,-0.01,-0.22,0.08,-0.04,1.0
23:39:56.479840,0.98,-0.03,-0.01,-0.22,0.04,-0.03,1.0
23:39:56.497840,0.97,-0.03,-0.01,-0.22,-0.01,-0.03,0.97
23:39:56.501840,0.97,-0.03,-0.01,-0.22,-0.08,-0.03,0.92
23:39:56.507868,0.97,-0.04,-0.01,-0.22,-0.16,-0.07,0.88
23:39:56.530867,0.98,-0.04,-0.01,-0.22,-0.21,-0.12,0.88
23:39:56.534867,0.98,-0.05,-0.01,-0.22,-0.21,-0.15,0.93
23:39:56.538867,0.98,-0.05,-0.01,-0.22,-0.16,-0.14,1.02
23:39:56.547867,0.97,-0.05,-0.01,-0.22,-0.1,-0.11,1.1
23:39:56.563868,0.97,-0.05,-0.01,-0.22,-0.08,-0.09,1.15
23:39:56.567867,0.97,-0.04,-0.01,-0.22,-0.08,-0.1,1.16
23:39:56.580867,0.97,-0.04,-0.01,-0.22,-0.11,-0.14,1.14
23:39:56.595867,0.97,-0.04,-0.01,-0.23,-0.14,-0.2,1.1
23:39:56.599867,0.97,-0.04,-0.01,-0.23,-0.17,-0.26,1.07
23:39:56.612867,0.97,-0.04,-0.01,-0.23,-0.19,-0.28,1.06
23:39:56.616867,0.97,-0.03,-0.02,-0.23,-0.2,-0.24,1.06
23:39:56.630071,0.97,-0.03,-0.02,-0.23,-0.21,-0.16,1.05
23:39:56.648071,0.97,-0.03,-0.02,-0.23,-0.23,-0.07,1.03
23:39:56.651071,0.97,-0.03,-0.02,-0.23,-0.24,-0.01,1.0
23:39:56.664071,0.97,-0.03,-0.02,-0.23,-0.23,0.02,1.0
23:39:56.667080,0.97,-0.03,-0.02,-0.23,-0.2,0.01,1.0
23:39:56.680080,0.97,-0.03,-0.03,-0.23,-0.16,-0.03,1.01
23:39:56.697080,0.97,-0.03,-0.03,-0.23,-0.13,-0.07,1.04
23:39:56.702080,0.97,-0.02,-0.03,-0.23,-0.12,-0.11,1.08
23:39:56.714080,0.97,-0.02,-0.03,-0.24,-0.13,-0.11,1.11
23:39:56.718089,0.97,-0.02,-0.03,-0.24,-0.14,-0.09,1.12
23:39:56.730089,0.97,-0.01,-0.04,-0.24,-0.16,-0.05,1.1
23:39:56.746089,0.97,-0.01,-0.04,-0.24,-0.17,-0.02,1.06
23:39:56.749124,0.97,-0.01,-0.04,-0.24,-0.19,0.0,1.01
23:39:56.762225,0.97,-0.01,-0.05,-0.24,-0.21,0.0,0.97
23:39:56.766225,0.97,-0.0,-0.05,-0.24,-0.22,0.0,0.95
23:39:56.779225,0.97,-0.0,-0.05,-0.24,-0.22,0.0,0.93
23:39:56.796225,0.97,0.0,-0.05,-0.24,-0.21,0.01,0.94
23:39:56.798225,0.97,0.0,-0.05,-0.24,-0.21,0.03,0.97
23:39:56.812233,0.97,0.01,-0.05,-0.24,-0.22,0.05,0.99
23:39:56.816233,0.97,0.01,-0.05,-0.24,-0.25,0.06,1.01
23:39:56.829233,0.97,0.01,-0.05,-0.23,-0.28,0.06,1.01
23:39:56.846233,0.97,0.01,-0.05,-0.23,-0.32,0.04,1.01
23:39:56.848233,0.97,0.01,-0.05,-0.23,-0.36,0.03,0.99
23:39:56.862233,0.97,0.01,-0.05,-0.23,-0.4,0.04,0.96
23:39:56.867233,0.97,0.01,-0.05,-0.22,-0.45,0.05,0.94
23:39:56.878746,0.97,0.01,-0.05,-0.22,-0.49,0.07,0.93
23:39:56.895746,0.97,0.01,-0.04,-0.22,-0.52,0.09,0.94
23:39:56.898746,0.98,0.01,-0.04,-0.22,-0.53,0.1,0.97
23:39:56.912746,0.98,0.01,-0.03,-0.22,-0.52,0.1,1.0
23:39:56.916746,0.98,0.01,-0.03,-0.22,-0.52,0.09,1.02
23:39:56.928754,0.98,0.01,-0.02,-0.22,-0.55,0.06,1.03
23:39:56.945754,0.98,0.01,-0.01,-0.22,-0.61,0.01,1.04
23:39:56.948754,0.98,0.02,-0.01,-0.22,-0.69,-0.03,1.03
23:39:56.962754,0.98,0.02,-0.0,-0.22,-0.76,-0.07,1.0
23:39:56.966767,0.98,0.02,0.0,-0.21,-0.81,-0.1,0.94
23:39:56.978762,0.98,0.01,0.0,-0.21,-0.84,-0.1,0.86
23:39:56.996199,0.98,0.01,0.0,-0.21,-0.84,-0.08,0.8
23:39:56.999199,0.98,0.01,0.01,-0.2,-0.82,-0.05,0.77
23:39:57.013199,0.98,0.01,0.02,-0.2,-0.78,-0.01,0.82
23:39:57.016199,0.98,0.01,0.03,-0.2,-0.72,0.02,0.94
23:39:57.029199,0.98,0.01,0.05,-0.19,-0.66,0.03,1.06
23:39:57.046199,0.98,0.01,0.07,-0.19,-0.6,0.03,1.16
23:39:57.049199,0.98,0.01,0.08,-0.19,-0.55,-0.02,1.22
23:39:57.063208,0.98,0.01,0.09,-0.19,-0.5,-0.08,1.23
23:39:57.067208,0.98,0.01,0.1,-0.19,-0.45,-0.15,1.24
23:39:57.079208,0.98,0.01,0.11,-0.19,-0.37,-0.21,1.26
23:39:57.096208,0.98,0.01,0.11,-0.18,-0.26,-0.26,1.31
23:39:57.099208,0.98,0.0,0.11,-0.18,-0.08,-0.28,1.4
23:39:57.112208,0.98,0.0,0.11,-0.18,0.12,-0.27,1.47
23:39:57.129208,0.98,0.01,0.1,-0.18,0.34,-0.2,1.52
23:39:57.132208,0.98,0.01,0.09,-0.18,0.57,-0.1,1.5
23:39:57.146208,0.98,0.01,0.08,-0.18,0.75,0.01,1.41
23:39:57.149208,0.98,0.02,0.07,-0.18,0.88,0.1,1.29
23:39:57.162208,0.98,0.02,0.06,-0.18,0.97,0.13,1.18
23:39:57.179231,0.98,0.02,0.06,-0.18,0.98,0.12,1.12
23:39:57.182232,0.98,0.02,0.07,-0.18,0.94,0.06,1.12
23:39:57.196231,0.98,0.02,0.07,-0.17,0.89,-0.02,1.15
23:39:57.198231,0.98,0.02,0.08,-0.17,0.83,-0.07,1.17
23:39:57.212232,0.98,0.02,0.08,-0.17,0.76,-0.05,1.18
23:39:57.229231,0.98,0.03,0.07,-0.17,0.68,0.02,1.13
23:39:57.232231,0.98,0.04,0.06,-0.16,0.59,0.09,1.05
23:39:57.246232,0.98,0.04,0.06,-0.16,0.5,0.16,0.94
23:39:57.248232,0.98,0.05,0.05,-0.16,0.43,0.21,0.85
23:39:57.262914,0.98,0.05,0.05,-0.16,0.36,0.22,0.78
23:39:57.278914,0.98,0.05,0.05,-0.16,0.27,0.18,0.73
23:39:57.281914,0.98,0.05,0.05,-0.16,0.18,0.12,0.7
23:39:57.295914,0.98,0.05,0.05,-0.16,0.11,0.05,0.69
23:39:57.298914,0.98,0.05,0.05,-0.16,0.08,-0.03,0.69
23:39:57.312922,0.99,0.04,0.05,-0.16,0.1,-0.11,0.71
23:39:57.328922,0.99,0.04,0.04,-0.15,0.15,-0.15,0.75
23:39:57.331922,0.99,0.04,0.04,-0.15,0.19,-0.17,0.79
23:39:57.345922,0.99,0.04,0.04,-0.15,0.23,-0.14,0.82
23:39:57.348922,0.99,0.03,0.04,-0.14,0.23,-0.08,0.85
23:39:57.362922,0.99,0.03,0.03,-0.14,0.23,-0.02,0.89
23:39:57.378923,0.99,0.03,0.03,-0.14,0.24,0.03,0.93
23:39:57.381922,0.99,0.03,0.03,-0.13,0.26,0.05,0.98
23:39:57.395922,0.99,0.03,0.02,-0.13,0.29,0.06,1.01
23:39:57.398922,0.99,0.03,0.02,-0.13,0.32,0.05,1.03
23:39:57.412922,0.99,0.02,0.02,-0.13,0.37,0.03,1.03
23:39:57.428931,0.99,0.02,0.01,-0.14,0.4,0.0,1.03
23:39:57.431931,0.99,0.02,0.01,-0.14,0.42,-0.02,1.02
23:39:57.445930,0.99,0.02,0.01,-0.14,0.42,-0.04,1.01
23:39:57.448931,0.99,0.02,0.01,-0.14,0.41,-0.03,1.01
23:39:57.462930,0.99,0.02,0.01,-0.14,0.4,-0.01,1.02
23:39:57.478931,0.99,0.02,0.01,-0.14,0.4,0.03,1.04
23:39:57.481930,0.99,0.02,0.02,-0.14,0.39,0.07,1.06
23:39:57.495930,0.99,0.02,0.02,-0.14,0.37,0.1,1.07
23:39:57.498931,0.99,0.02,0.02,-0.15,0.34,0.1,1.09
23:39:57.512930,0.99,0.02,0.01,-0.15,0.3,0.08,1.1
23:39:57.516930,0.99,0.01,0.01,-0.15,0.26,0.05,1.0
23:39:57.528931,0.99,0.01,0.01,-0.15,0.23,0.02,1.11
23:39:57.545930,0.99,0.01,0.0,-0.15,0.2,-0.01,1.11
23:39:57.548931,0.99,0.01,-0.0,-0.15,0.18,-0.02,1.11
23:39:57.562444,0.99,0.0,-0.01,-0.15,0.15,-0.01,1.11
23:39:57.579445,0.99,-0.0,-0.01,-0.16,0.12,0.0,1.11
23:39:57.581444,0.99,-0.0,-0.01,-0.16,0.09,0.02,1.12
23:39:57.596444,0.99,-0.01,-0.01,-0.16,0.06,0.04,1.14
23:39:57.598444,0.99,-0.01,-0.01,-0.16,0.02,0.05,1.16
23:39:57.612452,0.99,-0.01,-0.02,-0.16,-0.03,0.04,1.18
23:39:57.629452,0.99,-0.02,-0.02,-0.16,-0.08,0.02,1.18
23:39:57.632452,0.99,-0.02,-0.01,-0.16,-0.14,-0.02,1.17
23:39:57.646452,0.99,-0.03,-0.01,-0.16,-0.21,-0.06,1.15
23:39:57.648452,0.99,-0.03,-0.01,-0.16,-0.27,-0.11,1.13
23:39:57.662460,0.99,-0.03,-0.01,-0.16,-0.34,-0.14,1.1
23:39:57.679460,0.99,-0.03,-0.0,-0.15,-0.41,-0.16,1.07
23:39:57.682460,0.99,-0.03,0.0,-0.15,-0.48,-0.16,1.06
23:39:57.696460,0.99,-0.03,0.0,-0.15,-0.52,-0.15,1.05
23:39:57.699460,0.99,-0.04,0.0,-0.15,-0.52,-0.13,1.03
23:39:57.712460,0.99,-0.04,0.0,-0.15,-0.51,-0.1,1.01
23:39:57.729468,0.99,-0.04,0.0,-0.15,-0.5,-0.08,0.99
23:39:57.731469,0.99,-0.04,0.0,-0.14,-0.48,-0.07,0.97
23:39:57.745469,0.99,-0.04,0.0,-0.14,-0.47,-0.05,0.96
23:39:57.748468,0.99,-0.04,0.0,-0.14,-0.46,-0.03,0.95
23:39:57.762135,0.99,-0.04,0.0,-0.14,-0.45,-0.01,0.94
23:39:57.779135,0.99,-0.04,0.0,-0.14,-0.44,0.0,0.93
23:39:57.782135,0.99,-0.04,0.0,-0.13,-0.43,0.0,0.91
23:39:57.796136,0.99,-0.04,-0.0,-0.13,-0.41,-0.0,0.89
23:39:57.798135,0.99,-0.03,-0.0,-0.13,-0.4,-0.01,0.87
23:39:57.812136,0.99,-0.03,-0.0,-0.13,-0.38,-0.01,0.86
23:39:57.829135,0.99,-0.03,-0.0,-0.13,-0.36,-0.01,0.85
23:39:57.832135,0.99,-0.03,-0.0,-0.13,-0.34,-0.0,0.84
23:39:57.846135,0.99,-0.03,-0.0,-0.13,-0.33,-0.0,0.84
23:39:57.849135,0.99,-0.03,0.0,-0.13,-0.33,-0.01,0.84
23:39:57.862649,0.99,-0.03,0.0,-0.13,-0.33,-0.02,0.85
23:39:57.878648,0.99,-0.03,0.01,-0.13,-0.33,-0.03,0.86
23:39:57.881648,0.99,-0.03,0.01,-0.13,-0.32,-0.04,0.88
23:39:57.895648,0.99,-0.03,0.01,-0.13,-0.3,-0.06,0.9
23:39:57.898648,0.99,-0.03,0.02,-0.14,-0.27,-0.07,0.92
23:39:57.912656,0.99,-0.03,0.02,-0.14,-0.23,-0.07,0.92
23:39:57.928656,0.99,-0.03,0.02,-0.14,-0.21,-0.07,0.91
23:39:57.931656,0.99,-0.03,0.03,-0.14,-0.19,-0.06,0.91
23:39:57.945656,0.99,-0.03,0.03,-0.14,-0.19,-0.06,0.91
23:39:57.948656,0.99,-0.02,0.04,-0.15,-0.19,-0.06,0.91
23:39:57.962656,0.99,-0.02,0.04,-0.15,-0.19,-0.05,0.93
23:39:57.978656,0.99,-0.02,0.04,-0.16,-0.18,-0.04,0.94
23:39:57.981656,0.99,-0.02,0.04,-0.16,-0.16,-0.03,0.96
23:39:57.995656,0.99,-0.02,0.04,-0.16,-0.14,-0.03,0.96
23:39:57.998656,0.98,-0.02,0.04,-0.17,-0.11,-0.02,0.96
23:39:58.012656,0.98,-0.01,0.04,-0.17,-0.08,-0.01,0.96
23:39:58.028665,0.98,-0.01,0.04,-0.18,-0.06,-0.01,0.96
23:39:58.031665,0.98,-0.01,0.03,-0.18,-0.04,-0.02,0.96
23:39:58.045665,0.98,-0.01,0.03,-0.19,-0.02,-0.02,0.97
23:39:58.048665,0.98,-0.01,0.03,-0.19,0.0,-0.02,0.99
23:39:58.062665,0.98,-0.01,0.03,-0.19,0.03,-0.02,1.02
23:39:58.078665,0.98,-0.01,0.03,-0.2,0.06,-0.0,1.05
23:39:58.081665,0.98,-0.01,0.03,-0.2,0.09,0.01,1.08
23:39:58.095665,0.98,-0.01,0.03,-0.2,0.13,0.01,1.1
23:39:58.098665,0.98,-0.01,0.02,-0.2,0.15,0.01,1.11
23:39:58.112667,0.98,-0.01,0.02,-0.2,0.16,0.01,1.12
23:39:58.129177,0.98,-0.02,0.03,-0.2,0.15,-0.01,1.12
23:39:58.132176,0.98,-0.02,0.03,-0.2,0.13,-0.03,1.13
23:39:58.146177,0.98,-0.02,0.03,-0.19,0.11,-0.05,1.14
23:39:58.148177,0.98,-0.02,0.03,-0.19,0.09,-0.08,1.14
23:39:58.162185,0.98,-0.02,0.03,-0.19,0.08,-0.1,1.15
23:39:58.179185,0.98,-0.03,0.02,-0.19,0.07,-0.11,1.16
23:39:58.182185,0.98,-0.03,0.02,-0.19,0.07,-0.11,1.17
23:39:58.196185,0.98,-0.03,0.02,-0.19,0.06,-0.09,1.19
23:39:58.199185,0.98,-0.03,0.03,-0.19,0.04,-0.07,1.21
23:39:58.212193,0.98,-0.03,0.03,-0.18,0.02,-0.04,1.24
23:39:58.229193,0.98,-0.03,0.04,-0.18,-0.02,-0.02,1.25
23:39:58.232193,0.98,-0.03,0.05,-0.18,-0.07,-0.01,1.26
23:39:58.246193,0.98,-0.03,0.06,-0.18,-0.12,-0.01,1.26
23:39:58.249193,0.98,-0.03,0.06,-0.18,-0.17,-0.03,1.27
23:39:58.263204,0.98,-0.03,0.06,-0.18,-0.22,-0.06,1.29
23:39:58.279105,0.98,-0.03,0.07,-0.18,-0.26,-0.08,1.31
23:39:58.282106,0.98,-0.03,0.07,-0.17,-0.29,-0.08,1.32
23:39:58.296106,0.98,-0.02,0.07,-0.17,-0.32,-0.06,1.33
23:39:58.299105,0.98,-0.02,0.07,-0.17,-0.33,-0.03,1.33
23:39:58.313106,0.98,-0.02,0.07,-0.17,-0.33,-0.0,1.34
23:39:58.329113,0.98,-0.02,0.08,-0.17,-0.33,0.02,1.35
23:39:58.332114,0.98,-0.02,0.08,-0.17,-0.32,0.02,1.36
23:39:58.346114,0.98,-0.02,0.09,-0.17,-0.33,0.0,1.38
23:39:58.349113,0.98,-0.02,0.09,-0.17,-0.33,-0.03,1.39
23:39:58.362116,0.98,-0.02,0.09,-0.17,-0.33,-0.06,1.38
23:39:58.379114,0.98,-0.02,0.08,-0.17,-0.32,-0.08,1.34
23:39:58.382114,0.98,-0.01,0.07,-0.17,-0.29,-0.08,1.28
23:39:58.396113,0.98,-0.01,0.07,-0.17,-0.25,-0.06,1.21
23:39:58.398115,0.98,-0.01,0.06,-0.17,-0.2,-0.03,1.13
23:39:58.412646,0.98,-0.01,0.05,-0.17,-0.14,0.01,1.07
23:39:58.428645,0.98,-0.01,0.05,-0.17,-0.08,0.02,1.03
23:39:58.431644,0.98,-0.01,0.04,-0.17,-0.01,0.01,1.03
23:39:58.445645,0.98,-0.01,0.04,-0.17,0.06,-0.02,1.04
23:39:58.448644,0.98,-0.01,0.04,-0.17,0.15,-0.06,1.08
23:39:58.462583,0.98,-0.01,0.03,-0.17,0.22,-0.08,1.1
23:39:58.479583,0.98,-0.01,0.02,-0.17,0.28,-0.1,1.11
23:39:58.481583,0.98,-0.01,0.02,-0.17,0.31,-0.11,1.11
23:39:58.495583,0.99,-0.01,0.01,-0.17,0.32,-0.11,1.09
23:39:58.498583,0.99,-0.01,0.0,-0.17,0.32,-0.11,1.06
23:39:58.512583,0.99,-0.01,0.0,-0.17,0.32,-0.08,1.05
23:39:58.529583,0.99,-0.01,0.0,-0.17,0.32,-0.06,1.04
23:39:58.531584,0.99,-0.01,-0.0,-0.17,0.32,-0.05,1.03
23:39:58.545583,0.99,-0.01,-0.0,-0.17,0.34,-0.06,1.02
23:39:58.548583,0.99,-0.01,-0.01,-0.17,0.4,-0.06,1.02
23:39:58.562584,0.98,-0.01,-0.01,-0.17,0.46,-0.03,1.06
23:39:58.579584,0.98,-0.01,-0.02,-0.18,0.47,-0.03,1.08
23:39:58.581583,0.98,-0.01,-0.02,-0.18,0.42,-0.03,1.08
23:39:58.595583,0.98,-0.0,-0.02,-0.19,0.34,-0.05,1.05
23:39:58.598583,0.98,0.0,-0.02,-0.19,0.25,-0.08,0.99
23:39:58.612584,0.98,0.0,-0.03,-0.2,0.15,-0.12,0.91
23:39:58.629591,0.98,0.01,-0.03,-0.2,0.06,-0.15,0.8
23:39:58.631592,0.98,0.01,-0.03,-0.2,-0.02,-0.15,0.71
23:39:58.645591,0.98,0.01,-0.03,-0.2,-0.09,-0.14,0.64
23:39:58.648591,0.98,0.01,-0.04,-0.2,-0.12,-0.1,0.64
23:39:58.662582,0.98,0.0,-0.04,-0.19,-0.1,-0.05,0.71
23:39:58.679582,0.98,0.0,-0.05,-0.19,-0.05,-0.0,0.81
23:39:58.682582,0.98,0.0,-0.05,-0.19,0.0,0.04,0.89
23:39:58.695586,0.98,0.0,-0.06,-0.19,0.03,0.06,0.94
23:39:58.698582,0.98,0.0,-0.06,-0.2,0.02,0.07,0.94
23:39:58.712582,0.98,0.0,-0.06,-0.2,-0.0,0.05,0.93
23:39:58.729582,0.98,0.01,-0.07,-0.2,-0.03,0.02,0.92
23:39:58.731582,0.98,0.01,-0.07,-0.2,-0.05,-0.01,0.92
23:39:58.745582,0.98,0.01,-0.07,-0.2,-0.05,-0.03,0.91
23:39:58.748582,0.98,0.01,-0.07,-0.2,-0.06,-0.03,0.89
23:39:58.762582,0.98,0.01,-0.07,-0.2,-0.06,-0.03,0.86
23:39:58.779572,0.98,0.02,-0.07,-0.2,-0.06,-0.02,0.83
23:39:58.781572,0.98,0.02,-0.07,-0.2,-0.05,-0.0,0.79
23:39:58.795571,0.98,0.02,-0.08,-0.2,-0.03,0.02,0.77
23:39:58.798572,0.98,0.02,-0.08,-0.2,-0.01,0.04,0.76
23:39:58.812572,0.98,0.02,-0.08,-0.2,0.02,0.05,0.76
23:39:58.829571,0.98,0.02,-0.09,-0.2,0.05,0.05,0.77
23:39:58.831572,0.98,0.02,-0.09,-0.2,0.07,0.05,0.8
23:39:58.845572,0.98,0.02,-0.09,-0.2,0.08,0.03,0.84
23:39:58.848572,0.98,0.02,-0.09,-0.2,0.09,0.02,0.87
23:39:58.862204,0.98,0.03,-0.09,-0.19,0.09,0.0,0.88
23:39:58.879205,0.98,0.03,-0.09,-0.19,0.09,0.0,0.87
23:39:58.882205,0.98,0.03,-0.09,-0.19,0.09,0.01,0.83
23:39:58.896204,0.98,0.04,-0.09,-0.19,0.09,0.03,0.78
23:39:58.899205,0.98,0.04,-0.09,-0.19,0.09,0.06,0.71
23:39:58.912204,0.98,0.05,-0.1,-0.18,0.11,0.08,0.62
23:39:58.929204,0.98,0.05,-0.1,-0.18,0.11,0.1,0.52
23:39:58.932204,0.98,0.05,-0.11,-0.18,0.11,0.11,0.43
23:39:58.946205,0.97,0.05,-0.12,-0.18,0.1,0.1,0.35
23:39:58.948204,0.97,0.05,-0.13,-0.18,0.09,0.09,0.29
23:39:58.962717,0.97,0.05,-0.15,-0.18,0.09,0.08,0.25
23:39:58.978717,0.97,0.05,-0.16,-0.18,0.1,0.07,0.21
23:39:58.981716,0.97,0.05,-0.17,-0.18,0.09,0.07,0.17
23:39:58.995717,0.97,0.05,-0.18,-0.18,0.08,0.07,0.13
23:39:58.998717,0.96,0.04,-0.19,-0.18,0.08,0.07,0.09
23:39:59.012717,0.96,0.04,-0.2,-0.18,0.07,0.07,0.06
23:39:59.028716,0.96,0.04,-0.2,-0.18,0.05,0.06,0.03
23:39:59.031717,0.96,0.03,-0.21,-0.18,0.02,0.06,0.03
23:39:59.045717,0.96,0.03,-0.21,-0.18,0.01,0.05,0.05
23:39:59.048716,0.96,0.02,-0.21,-0.18,0.0,0.05,0.08
23:39:59.062717,0.96,0.02,-0.21,-0.18,-0.0,0.04,0.13
23:39:59.079225,0.96,0.01,-0.2,-0.18,0.0,0.02,0.2
23:39:59.082225,0.97,0.01,-0.19,-0.18,0.02,-0.02,0.27
23:39:59.096225,0.97,0.0,-0.17,-0.17,0.05,-0.06,0.33
23:39:59.098225,0.97,-0.0,-0.15,-0.17,0.1,-0.09,0.37
23:39:59.112225,0.98,-0.0,-0.14,-0.17,0.16,-0.12,0.42
23:39:59.129224,0.98,-0.0,-0.12,-0.17,0.23,-0.14,0.48
23:39:59.132224,0.98,0.0,-0.11,-0.17,0.32,-0.15,0.56
23:39:59.146225,0.98,0.0,-0.1,-0.17,0.42,-0.15,0.67
23:39:59.148225,0.98,0.0,-0.09,-0.16,0.51,-0.14,0.77
23:39:59.162225,0.98,0.01,-0.08,-0.16,0.56,-0.13,0.85
23:39:59.179224,0.99,0.01,-0.07,-0.16,0.52,-0.11,0.94
23:39:59.182225,0.99,0.01,-0.05,-0.16,0.42,-0.11,1.03
23:39:59.196224,0.99,0.01,-0.04,-0.15,0.32,-0.1,1.15
23:39:59.199225,0.99,0.02,-0.04,-0.15,0.26,-0.05,1.28
23:39:59.212225,0.99,0.02,-0.04,-0.15,0.24,0.0,1.36
23:39:59.229224,0.99,0.02,-0.05,-0.15,0.24,0.06,1.43
23:39:59.232225,0.99,0.03,-0.06,-0.15,0.24,0.11,1.47
23:39:59.246225,0.99,0.03,-0.07,-0.15,0.22,0.16,1.47
23:39:59.248225,0.98,0.04,-0.07,-0.16,0.19,0.19,1.45
23:39:59.262736,0.98,0.04,-0.07,-0.16,0.13,0.2,1.44
23:39:59.279523,0.98,0.04,-0.07,-0.16,0.03,0.2,1.43
23:39:59.282370,0.98,0.04,-0.06,-0.17,-0.1,0.23,1.42
23:39:59.295369,0.98,0.04,-0.05,-0.17,-0.22,0.29,1.4
23:39:59.298371,0.98,0.04,-0.04,-0.18,-0.31,0.35,1.37
23:39:59.312370,0.98,0.04,-0.01,-0.18,-0.36,0.37,1.32
23:39:59.329370,0.98,0.03,0.01,-0.18,-0.38,0.36,1.3
23:39:59.332370,0.98,0.02,0.03,-0.18,-0.38,0.33,1.31
23:39:59.345371,0.98,0.01,0.05,-0.19,-0.37,0.29,1.34
23:39:59.348370,0.98,0.0,0.07,-0.19,-0.36,0.25,1.38
23:39:59.362370,0.98,-0.01,0.08,-0.19,-0.36,0.2,1.41
23:39:59.379378,0.98,-0.02,0.08,-0.18,-0.37,0.12,1.45
23:39:59.382378,0.98,-0.03,0.09,-0.18,-0.41,0.02,1.49
23:39:59.395380,0.98,-0.04,0.09,-0.18,-0.4,-0.08,1.52
23:39:59.398378,0.98,-0.04,0.08,-0.18,-0.34,-0.19,1.55
23:39:59.412378,0.98,-0.05,0.08,-0.17,-0.23,-0.29,1.58
23:39:59.429378,0.98,-0.06,0.09,-0.18,-0.08,-0.36,1.62
23:39:59.432378,0.98,-0.06,0.09,-0.18,0.06,-0.41,1.66
23:39:59.445378,0.98,-0.06,0.09,-0.18,0.17,-0.43,1.71
23:39:59.448378,0.98,-0.06,0.1,-0.18,0.25,-0.41,1.76
23:39:59.462378,0.98,-0.06,0.1,-0.18,0.3,-0.36,1.79
23:39:59.480378,0.98,-0.06,0.1,-0.19,0.31,-0.27,1.8
23:39:59.483378,0.98,-0.05,0.09,-0.19,0.27,-0.17,1.8
23:39:59.496378,0.98,-0.05,0.09,-0.19,0.21,-0.08,1.78
23:39:59.499378,0.98,-0.05,0.07,-0.19,0.17,0.02,1.75
23:39:59.512378,0.98,-0.04,0.06,-0.19,0.14,0.1,1.72
23:39:59.529378,0.98,-0.04,0.05,-0.19,0.1,0.13,1.69
23:39:59.532378,0.98,-0.04,0.05,-0.19,0.06,0.11,1.68
23:39:59.545379,0.98,-0.04,0.05,-0.19,0.02,0.05,1.68
23:39:59.548378,0.98,-0.04,0.05,-0.19,-0.03,-0.02,1.68
23:39:59.562378,0.98,-0.04,0.05,-0.19,-0.09,-0.07,1.69
23:39:59.579378,0.98,-0.04,0.06,-0.2,-0.18,-0.13,1.68
23:39:59.582378,0.98,-0.04,0.06,-0.2,-0.28,-0.17,1.65
23:39:59.595379,0.98,-0.03,0.07,-0.2,-0.38,-0.2,1.59
23:39:59.598378,0.98,-0.03,0.07,-0.2,-0.46,-0.2,1.53
23:39:59.612378,0.98,-0.03,0.06,-0.2,-0.53,-0.2,1.47
23:39:59.629379,0.98,-0.02,0.06,-0.2,-0.56,-0.19,1.4
23:39:59.631379,0.98,-0.02,0.05,-0.2,-0.55,-0.17,1.33
23:39:59.645379,0.98,-0.02,0.05,-0.19,-0.54,-0.15,1.26
23:39:59.649378,0.98,-0.02,0.04,-0.19,-0.52,-0.14,1.17
23:39:59.662378,0.98,-0.02,0.03,-0.19,-0.51,-0.15,1.09
23:39:59.679387,0.98,-0.02,0.03,-0.19,-0.5,-0.15,1.03
23:39:59.681387,0.98,-0.01,0.02,-0.19,-0.47,-0.15,0.99
23:39:59.695387,0.98,-0.01,0.01,-0.19,-0.42,-0.15,0.98
23:39:59.698386,0.98,-0.0,-0.0,-0.19,-0.37,-0.14,0.99
23:39:59.712386,0.98,0.0,-0.01,-0.2,-0.32,-0.13,1.01
23:39:59.729386,0.98,0.01,-0.02,-0.2,-0.26,-0.1,1.01
23:39:59.732386,0.98,0.02,-0.03,-0.2,-0.21,-0.08,1.0
23:39:59.745387,0.98,0.03,-0.03,-0.2,-0.18,-0.06,0.99
23:39:59.748386,0.98,0.04,-0.04,-0.2,-0.16,-0.05,0.96
23:39:59.762387,0.98,0.04,-0.04,-0.2,-0.14,-0.03,0.91
23:39:59.779387,0.98,0.05,-0.04,-0.2,-0.12,-0.02,0.83
23:39:59.781941,0.98,0.06,-0.05,-0.2,-0.1,-0.01,0.75
23:39:59.795590,0.98,0.07,-0.05,-0.2,-0.08,-0.0,0.67
23:39:59.799590,0.98,0.08,-0.06,-0.19,-0.05,0.01,0.61
23:39:59.812598,0.98,0.08,-0.07,-0.19,-0.02,0.02,0.56
23:39:59.829598,0.97,0.09,-0.08,-0.19,0.02,0.03,0.53
23:39:59.831597,0.97,0.09,-0.09,-0.19,0.08,0.03,0.51
23:39:59.845598,0.97,0.1,-0.1,-0.19,0.15,0.04,0.5
23:39:59.849597,0.97,0.1,-0.11,-0.19,0.22,0.04,0.47
23:39:59.862598,0.97,0.11,-0.11,-0.18,0.25,0.03,0.44
23:39:59.878598,0.97,0.11,-0.11,-0.18,0.26,0.02,0.41
23:39:59.881597,0.97,0.11,-0.11,-0.18,0.26,0.03,0.37
23:39:59.895598,0.97,0.12,-0.11,-0.17,0.26,0.04,0.36
23:39:59.899597,0.97,0.12,-0.11,-0.17,0.26,0.07,0.37
23:39:59.912598,0.97,0.12,-0.11,-0.17,0.26,0.11,0.39
23:39:59.928606,0.97,0.12,-0.11,-0.16,0.26,0.15,0.41
23:39:59.931605,0.97,0.12,-0.12,-0.16,0.26,0.17,0.41
23:39:59.945606,0.97,0.12,-0.12,-0.15,0.25,0.17,0.41
23:39:59.949605,0.97,0.11,-0.13,-0.15,0.25,0.16,0.41
23:39:59.962606,0.97,0.11,-0.13,-0.14,0.25,0.15,0.42
23:39:59.978614,0.98,0.11,-0.13,-0.14,0.25,0.13,0.44
23:39:59.981614,0.98,0.11,-0.13,-0.14,0.24,0.12,0.47
23:39:59.995614,0.98,0.1,-0.14,-0.14,0.24,0.13,0.5
23:39:59.999614,0.98,0.1,-0.14,-0.13,0.25,0.13,0.53
23:40:00.012614,0.98,0.1,-0.15,-0.13,0.26,0.14,0.55
23:40:00.029612,0.98,0.09,-0.15,-0.13,0.26,0.15,0.58
23:40:00.031612,0.98,0.09,-0.15,-0.13,0.27,0.16,0.61
23:40:00.045612,0.98,0.08,-0.15,-0.12,0.27,0.17,0.64
23:40:00.049612,0.98,0.08,-0.14,-0.12,0.25,0.17,0.68
23:40:00.062120,0.98,0.07,-0.14,-0.12,0.23,0.17,0.73
23:40:00.079120,0.98,0.07,-0.14,-0.12,0.22,0.15,0.79
23:40:00.082120,0.98,0.06,-0.14,-0.12,0.22,0.13,0.85
23:40:00.096120,0.98,0.06,-0.14,-0.12,0.23,0.11,0.9
23:40:00.099119,0.98,0.05,-0.14,-0.12,0.24,0.09,0.93
23:40:00.112120,0.98,0.05,-0.13,-0.12,0.25,0.08,0.95
23:40:00.129120,0.98,0.05,-0.13,-0.11,0.25,0.08,0.95
23:40:00.132120,0.98,0.05,-0.13,-0.11,0.25,0.1,0.94
23:40:00.146120,0.98,0.05,-0.13,-0.11,0.24,0.12,0.92
23:40:00.149120,0.98,0.05,-0.13,-0.11,0.23,0.15,0.92
23:40:00.163119,0.98,0.04,-0.12,-0.11,0.21,0.16,0.96
23:40:00.179120,0.99,0.04,-0.12,-0.11,0.2,0.17,1.01
23:40:00.182120,0.99,0.04,-0.11,-0.12,0.21,0.16,1.07
23:40:00.196120,0.99,0.04,-0.11,-0.12,0.23,0.15,1.11
23:40:00.199120,0.99,0.05,-0.1,-0.12,0.23,0.14,1.13
23:40:00.212120,0.99,0.05,-0.1,-0.12,0.21,0.13,1.13
23:40:00.229134,0.99,0.05,-0.09,-0.12,0.18,0.14,1.11
23:40:00.232134,0.99,0.05,-0.09,-0.12,0.17,0.16,1.08
23:40:00.246134,0.99,0.05,-0.09,-0.12,0.16,0.18,1.06
23:40:00.249134,0.99,0.05,-0.09,-0.12,0.15,0.2,1.06
23:40:00.262134,0.99,0.04,-0.08,-0.12,0.14,0.2,1.08
23:40:00.279134,0.99,0.04,-0.08,-0.12,0.15,0.19,1.11
23:40:00.282134,0.99,0.04,-0.08,-0.12,0.16,0.17,1.14
23:40:00.296134,0.99,0.04,-0.08,-0.12,0.17,0.15,1.16
23:40:00.299134,0.99,0.04,-0.08,-0.12,0.17,0.13,1.17
23:40:00.313134,0.99,0.04,-0.08,-0.12,0.17,0.11,1.17
23:40:00.329134,0.99,0.04,-0.08,-0.12,0.18,0.11,1.16
23:40:00.332134,0.99,0.04,-0.08,-0.12,0.18,0.12,1.15
23:40:00.346134,0.99,0.04,-0.08,-0.12,0.18,0.13,1.14
23:40:00.350134,0.99,0.04,-0.08,-0.13,0.18,0.13,1.13
23:40:00.362641,0.99,0.04,-0.08,-0.13,0.18,0.13,1.13
23:40:00.378641,0.99,0.04,-0.07,-0.13,0.17,0.13,1.12
23:40:00.381641,0.99,0.04,-0.07,-0.13,0.16,0.12,1.11
23:40:00.395641,0.99,0.04,-0.07,-0.13,0.15,0.12,1.09
23:40:00.399641,0.99,0.04,-0.07,-0.13,0.14,0.12,1.07
23:40:00.412641,0.99,0.05,-0.07,-0.13,0.14,0.13,1.05
23:40:00.429641,0.99,0.05,-0.07,-0.13,0.14,0.13,1.04
23:40:00.431641,0.99,0.05,-0.07,-0.13,0.14,0.13,1.02
23:40:00.445641,0.99,0.05,-0.07,-0.13,0.13,0.13,1.01
23:40:00.449641,0.99,0.05,-0.07,-0.13,0.12,0.13,1.0
23:40:00.462641,0.99,0.05,-0.07,-0.13,0.12,0.11,0.99
23:40:00.478641,0.99,0.05,-0.07,-0.13,0.12,0.11,0.99
23:40:00.481641,0.99,0.05,-0.07,-0.13,0.12,0.1,1.0
23:40:00.495641,0.99,0.05,-0.07,-0.13,0.11,0.1,1.01
23:40:00.499641,0.99,0.05,-0.07,-0.13,0.12,0.11,1.01
23:40:00.512641,0.99,0.05,-0.08,-0.13,0.14,0.11,1.01
23:40:00.528641,0.99,0.05,-0.07,-0.13,0.14,0.12,1.0
23:40:00.532641,0.99,0.05,-0.07,-0.13,0.13,0.11,0.99
23:40:00.545641,0.99,0.05,-0.07,-0.13,0.12,0.11,0.97
23:40:00.549641,0.99,0.05,-0.06,-0.13,0.09,0.11,0.95
23:40:00.562641,0.99,0.05,-0.06,-0.13,0.09,0.1,0.95
23:40:00.578641,0.99,0.05,-0.06,-0.13,0.1,0.1,0.95
23:40:00.581641,0.99,0.05,-0.07,-0.13,0.11,0.1,0.97
23:40:00.595641,0.99,0.05,-0.07,-0.13,0.12,0.12,0.98
23:40:00.599641,0.99,0.05,-0.07,-0.12,0.12,0.13,0.99
23:40:00.613147,0.99,0.05,-0.07,-0.12,0.13,0.13,1.01
23:40:00.629147,0.99,0.05,-0.07,-0.12,0.14,0.13,1.01
23:40:00.632147,0.99,0.05,-0.08,-0.12,0.16,0.13,1.01
23:40:00.646147,0.99,0.04,-0.08,-0.12,0.17,0.13,1.0
23:40:00.650147,0.99,0.04,-0.08,-0.12,0.17,0.12,1.01
23:40:00.662147,0.99,0.04,-0.08,-0.12,0.17,0.12,1.02
23:40:00.679147,0.99,0.04,-0.08,-0.12,0.17,0.12,1.03
23:40:00.682147,0.99,0.04,-0.07,-0.12,0.17,0.12,1.02
23:40:00.696147,0.99,0.04,-0.07,-0.12,0.16,0.11,1.02
